L(T-168),L(T)
5551.82208,5346.52812
4983.17184,5138.89596
4888.3968,4940.77248
5072.95872,4766.18688
5196.2598,5020.1154
5641.2972,5588.76564
7153.17732,6436.59696
7849.80504,6978.7476
6329.97504,6643.44972
6292.8756,3907.9116
5349.8016,7154.892
5225.40936,6498.32544
5000.47452,6414.15024
4775.53968,7272.11376
6177.05676,8264.7576
6177.05676,8058.996
6155.7012,7751.60064
6212.12976,7267.1256
7424.25264,6523.11036
7407.4176,5761.79244
7068.22272,5363.8308
6515.784,5104.2906
6350.08356,4993.14816
5502.25224,5202.65088
4931.2638,5761.3248
4775.53968,5988.28608
4713.8112,6197.7888
4689.02628,6424.75008
4844.7504,6644.22912
5571.46296,6626.4588
6150.71304,6847.34076
6296.30496,6354.60408
6515.16048,6354.60408
6269.64948,6150.71304
5607.0036,5827.88556
5932.7928,5929.83108
5675.5908,6127.95456
5675.27904,6843.75552
5435.5356,8063.04888
5572.71,8063.04888
6023.2032,8063.04888
6110.496,6955.67736
7951.75056,6687.252
8013.0114,5709.8844
7591.82364,5554.16028
7088.17536,5450.3442
6477.12576,5294.62008
5848.6176,5208.10668
5460.4764,5260.01472
5097.89952,5420.88288
5062.9824,6094.28448
5080.44096,6683.51088
5324.8608,6717.18096
5970.82752,6750.85104
6477.12576,6835.02624
6635.8116,6919.20144
6635.8116,6700.34592
6371.595,6447.82032
6303.63132,6422.56776
6447.1968,6456.5496
6104.2608,6354.60408
5778.4716,6473.54052
5865.60852,7051.2318
5847.0588,8546.43276
6104.2608,8393.51448
6704.3988,8291.56896
7510.2984,7170.16824
7995.0852,7526.97756
7641.2376,3381.19308
5918.45184,5415.73884
6394.04172,5277.3174
5813.70048,6288.35508
5619.00636,5865.60852
5384.40696,6099.74028
5052.38256,6065.75844
5277.3174,6082.74936
5709.8844,6966.2772
6481.4904,6439.55868
7272.73728,6473.54052
7390.2708,6430.98528
7192.92672,6750.85104
6412.9032,6584.3712
6464.3436,6464.3436
6395.7564,6412.9032
4903.9848,6303.63132
6292.8756,6652.9584
6052.8204,7306.0956
6052.8204,8529.44184
6121.4076,8648.37828
6052.8204,8648.37828
8110.4364,7645.914
8196.1704,7255.12284
8045.7462,6327.1692
7786.206,5970.82752
6746.33052,5796.24192
5935.9104,5484.94956
5447.07072,5707.07856
4713.8112,5865.60852
5002.50096,6116.7312
5037.72984,6807.2796
5865.60852,8024.7024
5984.2332,6807.2796
7474.75776,6670.1052
7205.39712,6779.37708
6548.83056,6738.6924
6001.38,6721.5456
6310.0224,6515.784
5864.2056,6052.8204
6031.7766,6350.08356
4764.31632,6592.32108
4730.64624,7115.922
5774.41872,8179.0236
6228.9648,8218.773
6464.65536,7832.81412
7518.0924,7747.85952
8013.7908,8410.5054
6366.9186,6167.70396
6824.11464,5522.049
5915.33424,5242.71204
5900.21388,5126.8932
5761.3248,5478.09084
5726.40768,5757.58368
6024.13848,6145.41312
6599.33568,7076.79612
5534.36352,7272.11376
6267.62304,7679.89584
7482.520584,7272.73728
5895.319248,6801.35616
6429.613536,6750.85104
6094.28448,6144.7896
5709.8844,6127.95456
5912.84016,6133.72212
6001.38,6082.74936
5799.484224,6762.38616
5851.11168,7051.2318
6040.412352,8257.89888
7479.20034,8374.49712
7373.124,8144.73
7630.326,7218.8028
7476.0048,6921.072
6660.44064,6678.83448
6082.74936,6182.66844
6292.56384,5846.43528
6847.8084,5757.58368
5636.6208,5722.04304
5307.40224,5988.59784
5242.71204,6378.6096
5260.01472,7767.5004
5829.912,7613.1792
6930.4248,6700.34592
7897.03668,6851.86128
7584.18552,6952.87152
4847.24448,6902.3664
5933.41632,6835.02624
6014.47392,6643.44972
5898.4992,6439.55868
6138.5544,6412.9032
6001.38,6601.518
5744.48976,7094.0988
5709.8844,8357.19444
6073.24068,8097.65424
6807.2796,7558.93296
7818.9408,7323.08652
7870.3812,6796.368
7716.99528,5433.04152
7094.0988,6232.70592
6384.68892,5778.78336
5640.67368,5604.19776
5346.52812,5918.45184
5138.89596,6127.95456
4940.77248,7611.93216
4766.18688,7629.39072
5020.1154,7769.0592
5588.76564,6531.99552
6436.59696,6885.53136
6978.7476,6296.30496
6643.44972,6784.52112
3907.9116,6818.1912
7154.892,6683.51088
6498.32544,6717.18096
6414.15024,6813.35892
7272.11376,6745.39524
8264.7576,7390.2708
8058.996,8602.70544
7751.60064,8624.8404
7267.1256,8504.8128
6523.11036,8189.62344
5761.79244,7832.81412
5363.8308,7085.21364
5104.2906,5467.64688
4993.14816,5329.22544
5202.65088,5467.64688
5761.3248,5502.25224
5988.28608,6021.33264
6197.7888,6111.11952
6424.75008,6784.52112
6644.22912,6893.0136
6626.4588,6932.29536
6847.34076,6286.6404
6354.60408,6609.46788
6354.60408,6541.5042
6150.71304,6337.61316
5827.88556,6395.7564
5929.83108,6618.6648
6127.95456,6618.6648
6843.75552,6567.2244
8063.04888,7098.7752
8063.04888,8607.6936
8063.04888,8607.6936
6955.67736,8590.5468
6687.252,8710.5744
5709.8844,7613.1792
5554.16028,7218.8028
5450.3442,5571.46296
5294.62008,5519.55492
5208.10668,5640.67368
5260.01472,5900.99328
5420.88288,6354.91584
6094.28448,7384.97088
6683.51088,7696.88676
6717.18096,7696.88676
6750.85104,6796.368
6835.02624,6830.34984
6919.20144,7138.05696
6700.34592,7003.37664
6447.82032,6286.6404
6422.56776,6955.67736
6456.5496,6453.89964
6354.60408,6955.67736
6473.54052,5502.25224
7051.2318,8218.773
8546.43276,8824.3668
8393.51448,8213.3172
8291.56896,8065.85472
7170.16824,7167.3624
7526.97756,6755.8392
3381.19308,6104.2608
5415.73884,5986.72728
5277.3174,5865.60852
6288.35508,5727.18708
5865.60852,5779.09512
6099.74028,5398.43616
6065.75844,6700.34592
6082.74936,7662.90492
6966.2772,7238.13192
6439.55868,6439.55868
6473.54052,6644.22912
6430.98528,6626.92644
6750.85104,6730.74252
6584.3712,6584.3712
6464.3436,6626.92644
6412.9032,6592.32108
6303.63132,6263.57016
6652.9584,6258.582
7306.0956,5555.5632
8529.44184,7962.97392
8648.37828,8264.7576
8648.37828,8058.996
7645.914,7373.124
7255.12284,7064.4816
6327.1692,6755.8392
5970.82752,5467.64688
5796.24192,5294.62008
5484.94956,5237.568
5707.07856,5156.19864
5865.60852,5624.1504
6116.7312,6292.8756
6807.2796,7340.07744
8024.7024,7321.6836
6807.2796,6721.5456
6670.1052,6755.8392
6779.37708,6395.7564
6738.6924,6367.38624
6721.5456,6367.38624
6515.784,6429.2706
6052.8204,6394.04172
6350.08356,6358.81284
6592.32108,6429.2706
7115.922,6499.72836
8179.0236,6696.13716
8218.773,6319.99872
7832.81412,5986.72728
7747.85952,5623.371
8410.5054,5935.9104
6167.70396,5708.94912
5522.049,5692.58172
5242.71204,5484.94956
5126.8932,5447.07072
5478.09084,5534.36352
5757.58368,5586.7392
6145.41312,5866.07616
7076.79612,7336.33632
7272.11376,6634.2528
7679.89584,6529.50144
7272.73728,6211.66212
6801.35616,6471.20232
6750.85104,6038.63532
6144.7896,5778.78336
6127.95456,5727.18708
6133.72212,5604.19776
6082.74936,5727.18708
6762.38616,6232.70592
7051.2318,7249.82292
8257.89888,7993.83816
8374.49712,7699.6926
8144.73,7262.76096
7218.8028,6878.67264
6921.072,6886.46664
6678.83448,6903.76932
6182.66844,5952.12192
5846.43528,5865.60852
5757.58368,5831.00316
5722.04304,6055.938
5988.59784,6194.35944
6378.6096,5675.27904
7767.5004,5761.79244
7613.1792,6779.37708
6700.34592,5793.90372
6851.86128,5827.88556
6952.87152,5759.92188
6902.3664,5726.40768
6835.02624,5604.19776
6643.44972,5726.40768
6439.55868,5691.49056
6412.9032,5324.8608
6601.518,5656.57344
7094.0988,7315.13664
8357.19444,6927.3072
8097.65424,6851.86128
7558.93296,6546.96
7323.08652,5866.07616
6796.368,5639.11488
5433.04152,5342.31936
6232.70592,5225.40936
5778.78336,5260.01472
5604.19776,5606.06832
5918.45184,5623.371
6127.95456,5536.8576
7611.93216,5420.10348
7629.39072,6439.55868
7769.0592,6694.42248
6531.99552,6303.63132
6885.53136,4927.3668
6296.30496,4308.36732
6784.52112,4155.13728
6818.1912,5656.57344
6683.51088,5656.57344
6717.18096,3805.96608
6813.35892,5639.11488
6745.39524,5656.57344
7390.2708,6215.24736
8602.70544,5831.15904
8624.8404,6218.67672
8504.8128,5827.88556
8189.62344,5488.06716
7832.81412,5311.92276
7085.21364,5086.98792
5467.64688,5062.9824
5329.22544,4808.74212
5467.64688,4614.98328
5502.25224,4315.5378
6021.33264,4474.06776
6111.11952,4801.104
6784.52112,5342.31936
6893.0136,5813.70048
6932.29536,5725.94004
6286.6404,5199.22152
6609.46788,5841.75888
6541.5042,5993.27424
6337.61316,6262.63488
6395.7564,5976.4392
6618.6648,5759.92188
6618.6648,5349.8016
6567.2244,5538.4164
7098.7752,5761.3248
8607.6936,7373.74752
8607.6936,7577.95032
8590.5468,7238.13192
8710.5744,6881.3226
7613.1792,6541.5042
7218.8028,5606.06832
5571.46296,5381.13348
5519.55492,5185.19232
5640.67368,4949.65764
5900.99328,4914.42876
6354.91584,4965.86916
7384.97088,5208.10668
7696.88676,6001.38
7696.88676,6936.03648
6796.368,7070.7168
6830.34984,6771.73896
7138.05696,6204.64752
7003.37664,6144.7896
6286.6404,6178.45968
6955.67736,6018.5268
6453.89964,5932.7928
6955.67736,5812.7652
5502.25224,6320.62224
8218.773,7509.98664
8824.3668,7929.30384
8213.3172,8325.5508
8065.85472,8384.7852
7167.3624,7373.124
6755.8392,6618.6648
6104.2608,5900.99328
5986.72728,5604.19776
5865.60852,5349.8016
5727.18708,6652.9584
5779.09512,5255.02656
5398.43616,5412.1536
6700.34592,5949.9396
7662.90492,7187.15916
7238.13192,7883.78688
6439.55868,7136.1864
6644.22912,6618.6648
6626.92644,6721.5456
6730.74252,6678.83448
6584.3712,6337.61316
6626.92644,6532.9308
6592.32108,6635.8116
6263.57016,6436.59696
6258.582,5156.19864
5555.5632,8083.31328
7962.97392,8599.43196
8264.7576,8599.43196
8058.996,8339.89176
7373.124,7943.6448
7064.4816,7450.90812
6755.8392,6605.415
5467.64688,5704.27272
5294.62008,5544.33984
5237.568,5633.19144
5156.19864,5671.84968
5624.1504,5830.37964
6292.8756,6411.65616
7340.07744,7734.14208
7321.6836,5250.19428
6721.5456,6550.0776
6755.8392,6635.8116
6395.7564,6824.4264
6367.38624,6824.4264
6367.38624,6601.518
6429.2706,5881.3524
6394.04172,6567.2244
6358.81284,6378.6096
6429.2706,6575.0184
6499.72836,7526.6658
6696.13716,7818.9408
6319.99872,8080.35156
5986.72728,7907.32476
5623.371,7577.01504
5935.9104,7192.92672
5708.94912,6756.46272
5692.58172,6250.16448
5484.94956,5900.8374
5447.07072,5830.37964
5534.36352,5900.8374
5586.7392,5971.29516
5866.07616,6059.36736
7336.33632,7578.8856
6634.2528,7098.7752
6529.50144,5892.264
6211.66212,6490.53144
6471.20232,6456.5496
6038.63532,5369.13072
5778.78336,5131.25784
5727.18708,5058.306
5604.19776,5058.306
5727.18708,6354.60408
6232.70592,6966.2772
7249.82292,7781.84136
7993.83816,8518.53024
7699.6926,8501.6952
7262.76096,8325.5508
6878.67264,7665.08724
6886.46664,7227.84384
6903.76932,6808.8384
5952.12192,6217.89732
5865.60852,5813.70048
5831.00316,5513.31972
6055.938,5460.4764
6194.35944,5654.23524
5675.27904,6446.88504
5761.79244,7315.13664
6779.37708,7646.84928
5793.90372,6762.38616
5827.88556,6728.40432
5759.92188,6558.49512
5726.40768,5229.774
5604.19776,5058.306
5726.40768,5125.80204
5691.49056,5104.2906
5324.8608,4259.88864
5656.57344,3581.65476
7315.13664,4818.2508
6927.3072,3532.2408
6851.86128,8573.4
6546.96,8053.69608
5866.07616,7664.6196
5639.11488,6995.8944
5342.31936,6481.4904
5225.40936,6110.496
5260.01472,5796.24192
5606.06832,5516.90496
5623.371,5401.242
5536.8576,5572.71
5420.10348,6344.316
6439.55868,7525.26288
6694.42248,7323.2424
6303.63132,8053.69608
4927.3668,8087.67792
4308.36732,5165.23968
4155.13728,5281.2144
5656.57344,5161.1868
5656.57344,5377.23648
3805.96608,5255.02656
5639.11488,5324.8608
5656.57344,7197.91488
6215.24736,8357.19444
5831.15904,8668.64268
6218.67672,8607.6936
5827.88556,8281.9044
5488.06716,7595.87652
5311.92276,7221.9204
5086.98792,6482.11392
5062.9824,5953.36896
4808.74212,5761.3248
4614.98328,5830.37964
4315.5378,5615.42112
4474.06776,5830.37964
4801.104,6162.87168
5342.31936,7028.16156
5813.70048,7227.84384
5725.94004,6961.6008
5199.22152,6910.1604
5841.75888,8325.5508
5993.27424,6813.35892
6262.63488,8401.932
5976.4392,8487.666
5759.92188,8487.666
5349.8016,6550.0776
5538.4164,6473.54052
5761.3248,6515.784
7373.74752,8436.2256
7577.95032,8547.52392
7238.13192,7976.53548
6881.3226,8624.52864
6541.5042,7210.38528
5606.06832,6826.29696
5381.13348,6197.7888
5185.19232,5936.06628
4949.65764,5846.43528
4914.42876,6023.2032
4965.86916,5988.59784
5208.10668,6459.6672
6001.38,7769.0592
6936.03648,7645.914
7070.7168,7543.96848
6771.73896,6745.39524
6204.64752,6813.35892
6144.7896,5555.5632
6178.45968,5471.07624
6018.5268,5384.0952
5932.7928,5571.46296
5812.7652,5190.804
6320.62224,6995.8944
7509.98664,7647.4728
7929.30384,8196.1704
8325.5508,7943.6448
8384.7852,7908.72768
7373.124,7594.4736
6618.6648,7646.84928
5900.99328,5988.9096
5604.19776,5636.6208
5349.8016,5390.01864
6652.9584,5231.48868
5255.02656,5460.4764
5412.1536,5566.16304
5949.9396,5727.18708
7187.15916,6332.78088
7883.78688,6498.6372
7136.1864,6841.5732
6618.6648,6772.986
6721.5456,6481.4904
6678.83448,6464.3436
6337.61316,6252.65856
6532.9308,6218.67672
6635.8116,5997.79476
6436.59696,6048.76752
5156.19864,6048.76752
8083.31328,7574.2092
8599.43196,8049.79908
8599.43196,8208.32904
8339.89176,7996.95576
7943.6448,7627.05252
7450.90812,6781.5594
6605.415,5830.37964
5704.27272,5597.6508
5544.33984,5491.02888
5633.19144,5366.63664
5671.84968,5548.5486
5830.37964,5795.15076
6411.65616,6430.05
7734.14208,7407.4176
5250.19428,7218.8028
6550.0776,6550.0776
6635.8116,5264.0676
6824.4264,4504.30848
6824.4264,6094.908
6601.518,6148.6866
5881.3524,5115.35808
6567.2244,3613.92192
6378.6096,5516.90496
6575.0184,5289.94368
7526.6658,8461.01052
7818.9408,8744.868
8080.35156,8754.37668
7907.32476,7803.97632
7577.01504,8153.14752
7192.92672,7070.7168
6756.46272,6127.95456
6250.16448,5377.23648
5900.8374,5255.02656
5830.37964,5377.23648
5900.8374,5412.1536
5971.29516,5464.52928
6059.36736,6127.95456
7578.8856,7454.80512
7098.7752,7051.2318
5892.264,6313.14
6490.53144,6481.4904
6456.5496,5386.12164
5369.13072,5332.6548
5131.25784,5212.6272
5058.306,3466.14768
5058.306,5182.2306
6354.60408,6835.02624
6966.2772,7733.2068
7781.84136,8841.66948
8518.53024,8807.06412
8501.6952,8484.86016
8325.5508,8135.68896
7665.08724,7158.0096
7227.84384,6337.45728
6808.8384,5883.53472
6217.89732,5569.28064
5813.70048,5481.98784
5513.31972,5691.49056
5460.4764,5918.45184
5654.23524,6581.87712
6446.88504,4451.9328
7315.13664,7509.98664
7646.84928,6851.86128
6762.38616,6801.35616
6728.40432,6847.34076
6558.49512,6830.34984
5229.774,6694.42248
5058.306,6252.65856
5125.80204,6286.6404
5104.2906,5199.22152
4259.88864,6414.15024
3581.65476,7441.7112
4818.2508,7070.7168
3532.2408,8131.32432
8573.4,7922.601
8053.69608,7492.99572
7664.6196,7098.7752
6995.8944,6263.57016
6481.4904,5761.3248
6110.496,5778.78336
5796.24192,5601.39192
5516.90496,5478.09084
5401.242,5272.48512
5572.71,5394.69504
6344.316,5831.15904
7525.26288,6796.368
7323.2424,7187.15916
8053.69608,6966.2772
8087.67792,6721.5456
5165.23968,6490.53144
5281.2144,6601.518
5161.1868,5486.976
5377.23648,6490.53144
5255.02656,5727.0312
5324.8608,6490.53144
7197.91488,6439.55868
8357.19444,7508.42784
8668.64268,8198.66448
8607.6936,8189.62344
8281.9044,8230.464
7595.87652,7870.3812
7221.9204,7509.36312
6482.11392,6523.11036
5953.36896,5953.36896
5761.3248,5671.84968
5830.37964,5548.5486
5615.42112,5671.84968
5830.37964,5848.6176
6162.87168,6459.6672
7028.16156,6826.29696
7227.84384,6878.67264
6961.6008,6581.87712
6910.1604,5657.97636
8325.5508,6507.52236
6813.35892,6354.60408
8401.932,6388.58592
8487.666,6014.78568
8487.666,6116.7312
6550.0776,6031.7766
6473.54052,6099.74028
6515.784,7340.07744
8436.2256,7917.76872
8547.52392,8019.71424
7976.53548,7815.8232
8624.52864,6711.4134
7210.38528,6371.595
6826.29696,6550.0776
6197.7888,5984.2332
5936.06628,5761.79244
5846.43528,5675.27904
6023.2032,5656.57344
5988.59784,5604.19776
6459.6672,5915.646
7769.0592,7390.2708
7645.914,7071.96384
7543.96848,6538.23072
6745.39524,6464.65536
6813.35892,6767.68608
5555.5632,5471.388
5471.07624,5709.8844
5384.0952,5536.8576
5571.46296,5536.8576
5190.804,5069.68524
6995.8944,4913.96112
7647.4728,7098.7752
8196.1704,8213.3172
7943.6448,8299.0512
7908.72768,8058.996
7594.4736,7716.06
7646.84928,6652.9584
5988.9096,6207.1416
5636.6208,5847.99408
5390.01864,5425.24752
5231.48868,5337.17532
5460.4764,5390.01864
5566.16304,5583.77748
5727.18708,6180.33024
6332.78088,6292.8756
6498.6372,6575.48604
6841.5732,6633.00576
6772.986,6750.85104
6481.4904,6565.6656
6464.3436,6252.65856
6252.65856,6150.71304
6218.67672,6065.75844
5997.79476,6133.72212
6048.76752,6031.7766
6048.76752,5369.13072
7574.2092,7102.20456
8049.79908,7201.656
8208.32904,7510.2984
7996.95576,8054.4304
7627.05252,5028.06528
6781.5594,6686.62848
5830.37964,6005.74464
5597.6508,5534.36352
5491.02888,5301.94644
5366.63664,5178.64536
5548.5486,5301.94644
5795.15076,5513.31972
6430.05,5597.6508
7407.4176,6656.8554
7218.8028,6279.46992
6550.0776,6060.6144
5264.0676,6581.87712
4504.30848,6507.2106
6094.908,6614.7678
6148.6866,6632.694
5115.35808,6184.07136
3613.92192,6075.57888
5516.90496,5967.0864
5289.94368,6127.95456
8461.01052,7441.08768
8744.868,8115.8922
8754.37668,7390.2708
7803.97632,6546.96
8153.14752,6677.43156
7070.7168,6422.56776
6127.95456,5518.152
5377.23648,5534.36352
5255.02656,5220.10944
5377.23648,4905.85536
5412.1536,4958.23104
5464.52928,5150.2752
6127.95456,5335.14888
7454.80512,6116.7312
7051.2318,5854.38516
6313.14,6320.62224
6481.4904,6422.56776
5386.12164,5161.1868
5332.6548,5246.9208
5212.6272,6241.4352
3466.14768,5831.00316
5182.2306,5658.444
6835.02624,5692.7376
7733.2068,5812.7652
8841.66948,6500.81952
8807.06412,7442.02296
8484.86016,7353.639
8135.68896,6972.98004
7158.0096,6540.41304
6337.45728,5656.57344
5883.53472,5743.86624
5569.28064,4870.93824
5481.98784,4731.26976
5691.49056,4597.36884
5918.45184,4456.45332
6581.87712,4791.12768
4451.9328,5178.64536
7509.98664,5827.88556
6851.86128,5199.22152
6801.35616,6439.55868
6847.34076,6550.0776
6830.34984,6430.05
6694.42248,6371.595
6252.65856,6235.66764
6286.6404,5847.0588
5199.22152,5607.0036
6414.15024,5589.8568
7441.7112,5761.3248
7070.7168,7201.656
8131.32432,7102.20456
7922.601,7287.39
7492.99572,7232.52024
7098.7752,6567.2244
6263.57016,5952.12192
5761.3248,5363.8308
5778.78336,5324.8608
5601.39192,4967.27208
5478.09084,4932.0432
5272.48512,4797.9864
5394.69504,5011.23024
5831.15904,5294.62008
6796.368,5935.9104
7187.15916,6378.6096
6966.2772,6395.7564
6721.5456,5287.4496
6490.53144,5832.71784
6601.518,5270.61456
5486.976,5097.276
6490.53144,7630.48188
5727.0312,7153.17732
6490.53144,6626.4588
6439.55868,7493.1516
7508.42784,7047.3348
8198.66448,6073.24068
8189.62344,5727.18708
8230.464,5484.94956
7870.3812,5412.1536
7509.36312,5307.40224
6523.11036,5255.02656
5953.36896,5272.48512
5671.84968,5246.9208
5548.5486,5437.0944
5671.84968,5673.40848
5848.6176,5687.59356
6459.6672,5821.02684
6826.29696,5799.67128
6878.67264,5606.06832
6581.87712,5808.0888
5657.97636,5454.55296
6507.52236,5454.08532
6354.60408,5415.73884
6388.58592,5571.46296
6014.78568,6505.80768
6116.7312,6881.3226
6031.7766,7102.20456
6099.74028,7013.0412
7340.07744,6841.5732
7917.76872,6310.0224
8019.71424,5589.8568
7815.8232,5315.508
6711.4134,5156.19864
6371.595,4923.31392
6550.0776,5150.2752
5984.2332,5132.81664
5761.79244,5303.0376
5675.27904,6077.44944
5656.57344,5959.60416
5604.19776,6021.17676
5915.646,5954.46012
7390.2708,5148.24876
7071.96384,5301.16704
6538.23072,5301.16704
6464.65536,4585.2102
6767.68608,4886.838
5471.388,4818.2508
5709.8844,4886.838
5536.8576,7000.25904
5536.8576,7204.15008
5069.68524,7081.6284
4913.96112,7102.20456
7098.7752,7051.2318
8213.3172,5878.85832
8299.0512,5335.14888
8058.996,5394.69504
7716.06,5185.19232
6652.9584,4983.17184
6207.1416,4152.6432
5847.99408,4663.9296
5425.24752,4848.49152
5337.17532,5824.92384
5390.01864,6048.76752
5583.77748,6207.1416
6180.33024,5551.82208
6292.8756,5980.80384
6575.48604,5720.95188
6633.00576,5622.90336
6750.85104,5707.07856
6565.6656,5929.83108
6252.65856,5810.89464
6150.71304,6224.2884
6065.75844,5932.7928
6133.72212,7218.8028
6031.7766,6765.34788
5369.13072,6869.16396
7102.20456,6350.08356
7201.656,6021.33264
7510.2984,5604.19776
8054.4304,5429.61216
5028.06528,5202.65088
6686.62848,4896.81432
6005.74464,4703.05548
5534.36352,4888.3968
5301.94644,5366.9484
5178.64536,5946.822
5301.94644,6087.114
5513.31972,6177.05676
5597.6508,5946.822
6656.8554,5774.41872
6279.46992,5131.25784
6060.6144,4989.7188
6581.87712,5115.35808
6507.2106,5234.4504
6614.7678,5377.86
6632.694,5516.90496
6184.07136,6005.74464
6075.57888,5935.9104
5967.0864,6040.66176
6127.95456,6073.24068
7441.08768,6018.5268
8115.8922,5658.444
7390.2708,5220.10944
6546.96,4723.63164
6677.43156,4643.97696
6422.56776,4773.51324
5518.152,4678.89408
5534.36352,4720.66992
5220.10944,4740.46668
4905.85536,5012.3214
4958.23104,5084.18208
5150.2752,5067.34704
5335.14888,5134.6872
6116.7312,5016.84192
5854.38516,5097.276
6320.62224,4553.56656
6422.56776,4561.0488
5161.1868,4571.181
5246.9208,4678.7382
6241.4352,4804.2216
5831.00316,5447.07072
5658.444,5530.93416
5692.7376,5865.60852
5812.7652,5579.88048
6500.81952,5575.0482
7442.02296,5270.3028
7353.639,4888.3968
6972.98004,4286.7
6540.41304,4012.3512
5656.57344,4312.26432
5743.86624,4417.01568
4870.93824,4556.68416
4731.26976,4783.64544
4597.36884,5062.9824
4456.45332,5132.81664
4791.12768,5202.65088
5178.64536,5235.69744
5827.88556,5318.15796
5199.22152,5233.20336
6439.55868,4944.35772
6550.0776,4842.4122
6430.05,4638.52116
6371.595,4672.503
6235.66764,4281.71184
5847.0588,5691.9582
5607.0036,6235.66764
5589.8568,6021.33264
5761.3248,6211.66212
7201.656,5865.60852
7102.20456,5604.19776
7287.39,5231.48868
7232.52024,4914.42876
6567.2244,4843.971
5952.12192,4703.05548
5363.8308,4691.36448
5324.8608,4709.1348
4967.27208,4655.82384
4932.0432,5348.86632
4797.9864,5267.1852
5011.23024,5046.30324
5294.62008,5590.01268
5935.9104,5539.03992
6378.6096,6694.42248
6395.7564,5318.15796
5287.4496,5335.14888
5832.71784,5250.19428
5270.61456,5246.9208
5097.276,5332.6548
7630.48188,6327.1692
7153.17732,6388.58592
6626.4588,6541.5042
7493.1516,6388.58592
7047.3348,6286.6404
6073.24068,5727.0312
5727.18708,5454.08532
5484.94956,5115.35808
5412.1536,4940.77248
5307.40224,4958.23104
5255.02656,5010.60672
5272.48512,5028.06528
5246.9208,5167.73376
5437.0944,5369.13072
5673.40848,5386.12164
5687.59356,5335.14888
5821.02684,5454.55296
5799.67128,5437.71792
5606.06832,5538.72816
5808.0888,5252.53248
5454.55296,5303.0376
5454.08532,5218.8624
5415.73884,5352.1398
5571.46296,5505.05808
6505.80768,6541.5042
6881.3226,7238.13192
7102.20456,7255.12284
7013.0412,7133.0688
6841.5732,6610.55904
6310.0224,5915.646
5589.8568,5879.7936
5315.508,5270.3028
5156.19864,5324.0814
4923.31392,5207.63904
5150.2752,5388.45984
5132.81664,5726.71944
5303.0376,5872.62312
6077.44944,6930.4248
5959.60416,6060.6144
6021.17676,5622.90336
5954.46012,5912.84016
5148.24876,6127.95456
5301.16704,5114.26692
5301.16704,5012.3214
4585.2102,4852.5444
4886.838,4774.44852
4818.2508,4876.39404
4886.838,4831.65648
7000.25904,7747.85952
7204.15008,7934.75964
7081.6284,7968.74148
7102.20456,7068.22272
7051.2318,6817.25592
5878.85832,6529.50144
5335.14888,5988.28608
5394.69504,5534.36352
5185.19232,5202.65088
4983.17184,5115.35808
4152.6432,5188.93344
4663.9296,5331.096
4848.49152,6095.21976
5824.92384,7000.25904
6048.76752,6666.67584
6207.1416,6161.62464
5551.82208,5740.74864
5980.80384,6666.67584
5720.95188,7374.05928
5622.90336,6694.42248
5707.07856,6350.08356
5929.83108,6515.784
5810.89464,6498.6372
6224.2884,6652.9584
5932.7928,8080.35156
7218.8028,8755.15608
6765.34788,8504.8128
6869.16396,8305.2864
6350.08356,7000.88256
6021.33264,6791.37984
5604.19776,6442.20864
5429.61216,5548.5486
5202.65088,5460.4764
4896.81432,5604.19776
4703.05548,5689.46412
4888.3968,5953.68072
5366.9484,6217.89732
5946.822,6961.6008
6087.114,7153.17732
6177.05676,6303.63132
5946.822,6235.66764
5774.41872,5727.0312
5131.25784,5709.8844
4989.7188,5674.96728
5115.35808,5759.92188
5234.4504,5298.3612
5377.86,5418.3888
5516.90496,7204.15008
6005.74464,8436.2256
5935.9104,8487.666
6040.66176,8470.5192
6073.24068,8121.65976
6018.5268,7255.12284
5658.444,7887.528
5220.10944,5864.2056
4723.63164,5761.79244
4643.97696,5636.6208
4773.51324,5442.86196
4678.89408,5384.40696
4720.66992,5846.43528
4740.46668,6004.02996
5012.3214,6817.25592
5084.18208,7161.43896
5067.34704,6412.9032
5134.6872,6550.0776
5016.84192,5281.2144
5097.276,5212.6272
4553.56656,5052.38256
4561.0488,4827.44772
4571.181,4783.9572
4678.7382,4852.5444
4804.2216,4869.6912
5447.07072,7956.1152
5530.93416,7730.8686
5865.60852,7713.87768
5579.88048,7543.96848
5575.0482,6869.16396
5270.3028,5900.8374
4888.3968,5178.64536
4286.7,5011.23024
4012.3512,4993.45992
4312.26432,4904.60832
4417.01568,4797.9864
4556.68416,5029.00056
4783.64544,5722.04304
5062.9824,7125.89832
5132.81664,6966.2772
5202.65088,6035.6736
5235.69744,6035.6736
5318.15796,3926.6172
5233.20336,5058.306
4944.35772,4921.1316
4842.4122,4663.9296
4638.52116,4475.3148
4672.503,4698.2232
4281.71184,4766.8104
5691.9582,7577.95032
6235.66764,7459.01388
6021.33264,7357.06836
6211.66212,7197.91488
5865.60852,6038.63532
5604.19776,5425.24752
5231.48868,5178.64536
4914.42876,4691.36448
4843.971,4579.7544
4703.05548,4602.51288
4691.36448,4638.05352
4709.1348,5045.52384
4655.82384,5502.25224
5348.86632,7699.6926
5267.1852,6711.4134
5046.30324,5812.7652
5590.01268,5984.2332
5539.03992,6039.41472
6694.42248,4536.57564
5318.15796,4468.61196
5335.14888,4298.70276
5250.19428,3839.94792
5246.9208,4412.1834
5332.6548,5812.7652
6327.1692,6915.30444
6388.58592,7306.0956
6541.5042,7136.1864
6388.58592,6835.02624
6286.6404,6346.81008
5727.0312,6195.29472
5454.08532,5969.4246
5115.35808,5307.40224
4940.77248,4870.93824
4958.23104,4486.84992
5010.60672,4207.51296
5028.06528,4269.5532
5167.73376,5196.2598
5369.13072,5442.86196
5386.12164,5812.7652
5335.14888,5641.2972
5454.55296,5795.6184
5437.71792,5590.01268
5538.72816,5556.03084
5252.53248,5235.69744
5303.0376,4781.15136
5218.8624,4663.30608
5352.1398,4655.51208
5505.05808,4915.83168
6541.5042,6978.7476
7238.13192,7272.11376
7255.12284,6927.3072
7133.0688,5264.0676
6610.55904,6043.77936
5915.646,5757.58368
5879.7936,5727.18708
5270.3028,5289.94368
5324.0814,5062.9824
5207.63904,4713.8112
5388.45984,4678.89408
5726.71944,4905.85536
5872.62312,5182.2306
6930.4248,6371.595
6060.6144,6155.7012
5622.90336,6378.6096
5912.84016,5986.72728
6127.95456,5607.0036
5114.26692,5264.0676
5012.3214,5260.01472
4852.5444,5144.04
4774.44852,4646.7828
4876.39404,4543.902
4831.65648,5115.35808
7747.85952,7419.888
7934.75964,7611.93216
7968.74148,7437.34656
7068.22272,6983.424
6817.25592,6337.45728
6529.50144,5115.35808
5988.28608,4696.35264
5534.36352,4591.60128
5202.65088,4315.5378
5115.35808,4051.3212
5188.93344,4190.0544
5331.096,4469.39136
6095.21976,4783.9572
7000.25904,6150.71304
6666.67584,6932.29536
6161.62464,6949.28628
5740.74864,5744.178
6666.67584,5161.1868
7374.05928,5075.4528
6694.42248,4886.838
6350.08356,4766.8104
6515.784,4663.9296
6498.6372,4792.84236
6652.9584,4827.44772
8080.35156,7111.40148
8755.15608,7646.84928
8504.8128,7232.52024
8305.2864,6755.8392
7000.88256,6678.83448
6791.37984,6354.91584
6442.20864,5866.07616
5548.5486,5586.7392
5460.4764,4914.42876
5604.19776,4262.69448
5689.46412,4300.41744
5953.68072,4491.6822
6217.89732,5125.80204
6961.6008,6267.62304
7153.17732,7647.4728
6303.63132,6065.75844
6235.66764,5640.98544
5727.0312,4553.56656
5709.8844,5250.19428
5674.96728,5012.3214
5759.92188,4852.5444
5298.3612,4886.838
5418.3888,4989.7188
7204.15008,5469.8292
8436.2256,6807.2796
8487.666,6782.65056
8470.5192,7146.00684
8121.65976,6748.0452
7255.12284,5398.43616
7887.528,4983.17184
5864.2056,4597.36884
5761.79244,4421.22444
5636.6208,4174.62228
5442.86196,4051.63296
5384.40696,3945.01104
5846.43528,4526.91108
6004.02996,5372.4042
6817.25592,6038.63532
7161.43896,6592.47696
6412.9032,6286.6404
6550.0776,6023.2032
5281.2144,5882.9112
5212.6272,5725.94004
5052.38256,5607.0036
4827.44772,5272.48512
4783.9572,5260.01472
4852.5444,5260.01472
4869.6912,5952.12192
7956.1152,7319.03364
7730.8686,7609.43808
7713.87768,8155.48572
7543.96848,6669.16992
6869.16396,6127.95456
5900.8374,5237.568
5178.64536,3683.75616
5011.23024,4667.8266
4993.45992,4385.99556
4904.60832,4371.49872
4797.9864,4318.18776
5029.00056,4602.51288
5722.04304,5675.27904
7125.89832,6285.0816
6966.2772,6903.76932
6035.6736,6512.04288
6035.6736,5691.49056
3926.6172,6640.17624
5058.306,5591.540304
4921.1316,5522.080176
4663.9296,6807.092544
4475.3148,6668.172288
4698.2232,5110.790796
4766.8104,6599.33568
7577.95032,8253.191304
7459.01388,7016.953788
7357.06836,6764.319072
7197.91488,6643.52766
6038.63532,5447.678652
5425.24752,5460.4764
5178.64536,5378.919984
4691.36448,4206.11004
4579.7544,4350.76668
4602.51288,4389.26904
4638.05352,4353.7284
5045.52384,4624.9596
5502.25224,5646.753
7699.6926,7578.1062
6711.4134,7272.11376
5812.7652,5740.74864
5984.2332,5674.032
6039.41472,5415.73884
4536.57564,3788.50752
4468.61196,5028.06528
4298.70276,5301.94644
3839.94792,6076.9818
4412.1834,6253.1262
5812.7652,7257.14928
6915.30444,7751.60064
7306.0956,7068.22272
7136.1864,8036.70516
6835.02624,7815.8232
6346.81008,8121.65976
6195.29472,7924.62744
5969.4246,5953.36896
5307.40224,5674.032
4870.93824,5220.10944
4486.84992,4861.58544
4207.51296,4932.0432
4269.5532,5028.06528
5196.2598,5398.43616
5442.86196,6488.505
5812.7652,6488.505
5641.2972,6834.5586
5795.6184,6609.46788
5590.01268,6344.316
5556.03084,6515.784
5235.69744,6241.4352
4781.15136,5881.3524
4663.30608,5607.0036
4655.51208,5829.912
4915.83168,5881.3524
6978.7476,7527.4452
7272.11376,8223.60528
6927.3072,8138.65068
5264.0676,8665.3692
6043.77936,7292.37816
5757.58368,6464.49948
5727.18708,6006.52404
5289.94368,5796.24192
5062.9824,5429.61216
4713.8112,5125.80204
4678.89408,5045.52384
4905.85536,5208.10668
5182.2306,5779.09512
6371.595,6567.2244
6155.7012,5882.9112
6378.6096,6886.46664
5986.72728,6541.5042
5607.0036,6155.7012
5264.0676,5486.976
5260.01472,5301.16704
5144.04,5126.8932
4646.7828,6886.46664
4543.902,5190.804
5115.35808,5294.62008
7419.888,8236.07568
7611.93216,7962.97392
7437.34656,7613.1792
6983.424,7561.7388
6337.45728,6494.58432
5115.35808,6197.7888
4696.35264,5213.87424
4591.60128,5062.9824
4315.5378,4748.72832
4051.3212,4703.05548
4190.0544,5062.9824
4469.39136,5450.3442
4783.9572,6159.75408
6150.71304,6584.3712
6932.29536,7215.21756
6949.28628,6782.65056
5744.178,6456.5496
5161.1868,6258.582
5075.4528,6155.7012
4886.838,5674.96728
4766.8104,5624.1504
4663.9296,6177.05676
4792.84236,6315.4782
4827.44772,6748.0452
7111.40148,8132.2596
7646.84928,7777.78848
7232.52024,7458.858
6755.8392,7270.2432
6678.83448,6773.92128
6354.91584,5900.99328
5866.07616,5442.86196
5586.7392,4595.3424
4914.42876,4412.1834
4262.69448,4252.4064
4300.41744,4441.0212
4491.6822,4492.4616
5125.80204,5744.48976
6267.62304,6310.0224
7647.4728,6851.86128
6065.75844,7115.922
5640.98544,7218.8028
4553.56656,6507.52236
5250.19428,6354.60408
5012.3214,5829.912
4852.5444,5420.10348
4886.838,5352.1398
4989.7188,5260.01472
5469.8292,5831.00316
6807.2796,7319.03364
6782.65056,6944.454
7146.00684,7249.82292
6748.0452,6791.37984
5398.43616,6407.29152
4983.17184,6110.496
4597.36884,5354.78976
4421.22444,4914.42876
4174.62228,4726.90512
4051.63296,4780.21608
3945.01104,4940.14896
4526.91108,5161.03092
5372.4042,5363.8308
6038.63532,6001.38
6592.47696,6395.7564
6286.6404,6344.316
6023.2032,6395.7564
5882.9112,5864.2056
5725.94004,6121.4076
5607.0036,5401.242
5272.48512,5915.646
5260.01472,5795.6184
5260.01472,5967.0864
5952.12192,6481.4904
7319.03364,7270.2432
7609.43808,7459.01388
8155.48572,7561.7388
6669.16992,7441.7112
6127.95456,7424.5644
5237.568,6407.29152
3683.75616,5621.65632
4667.8266,5513.31972
4385.99556,5313.32568
4371.49872,4957.91928
4318.18776,5161.03092
4602.51288,4967.27208
5675.27904,5349.8016
6285.0816,6704.3988
6903.76932,6898.31352
6512.04288,6515.784
5691.49056,6584.3712
6640.17624,6618.6648
5591.540304,5967.0864
5522.080176,5778.4716
6807.092544,5572.71
6668.172288,5415.73884
5110.790796,5363.8308
6599.33568,5640.67368
8253.191304,7255.12284
7016.953788,7900.7778
6764.319072,7904.6748
6643.52766,7767.5004
5447.678652,7353.639
5460.4764,6075.57888
5378.919984,5534.36352
4206.11004,5372.4042
4350.76668,4993.45992
4389.26904,4655.82384
4353.7284,4861.58544
4624.9596,5090.57316
5646.753,5864.2056
7578.1062,6738.6924
7272.11376,7013.0412
5740.74864,6990.28272
5674.032,5984.2332
5415.73884,6138.5544
3788.50752,5847.0588
5028.06528,5554.16028
5301.94644,5844.87648
6076.9818,7730.8686
6253.1262,7306.0956
7257.14928,7458.858
7751.60064,7476.0048
7068.22272,6601.518
8036.70516,6361.4628
7815.8232,6005.74464
8121.65976,5495.70528
7924.62744,4914.42876
5953.36896,4566.97224
5674.032,4407.03936
5220.10944,4403.61
4861.58544,4783.64544
4932.0432,5881.3524
5028.06528,6550.0776
5398.43616,6515.784
6488.505,6515.784
6488.505,5795.6184
6834.5586,6052.8204
6609.46788,4955.4252
6344.316,4732.5168
6515.784,4595.3424
6241.4352,4671.7236
5881.3524,4975.6896
5607.0036,6529.50144
5829.912,6634.2528
5881.3524,6739.00416
7527.4452,6194.35944
8223.60528,5621.65632
8138.65068,5324.8608
8665.3692,4591.60128
7292.37816,4417.01568
6464.49948,4446.78876
6006.52404,4498.6968
5796.24192,4758.237
5429.61216,4879.35576
5125.80204,5467.64688
5045.52384,6644.22912
5208.10668,6315.4782
5779.09512,5969.4246
6567.2244,5173.50132
5882.9112,5173.50132
6886.46664,4689.02628
6541.5042,4748.72832
6155.7012,4172.59584
5486.976,4399.55712
5301.16704,4207.51296
5126.8932,4853.47968
6886.46664,5761.3248
5190.804,7245.3024
5294.62008,6955.67736
8236.07568,6488.505
7962.97392,5329.22544
7613.1792,4792.84236
7561.7388,4259.88864
6494.58432,5796.24192
6197.7888,3910.40568
5213.87424,3787.1046
5062.9824,3751.87572
4748.72832,3928.02012
4703.05548,5150.2752
5062.9824,6529.50144
5450.3442,6931.04832
6159.75408,5866.07616
6584.3712,5150.2752
7215.21756,5255.02656
6782.65056,5272.48512
6456.5496,5080.44096
6258.582,4643.97696
6155.7012,4836.02112
5674.96728,4888.3968
5624.1504,5621.65632
6177.05676,7297.67808
6315.4782,7287.39
6748.0452,6550.0776
8132.2596,6275.7288
7777.78848,6215.24736
7458.858,5883.22296
7270.2432,5548.5486
6773.92128,5390.01864
5900.99328,5020.1154
5442.86196,4584.74256
4595.3424,4262.69448
4412.1834,4280.30892
4252.4064,4923.31392
4441.0212,7000.88256
4492.4616,6721.5456
5744.48976,5138.89596
6310.0224,5881.3524
6851.86128,5538.4164
7115.922,4989.7188
7218.8028,4955.4252
6507.52236,4844.7504
6354.60408,4758.237
5829.912,4896.65844
5420.10348,5121.59328
5352.1398,7215.21756
5260.01472,7526.6658
5831.00316,7180.6122
7319.03364,6567.2244
6944.454,5675.27904
7249.82292,6592.32108
6791.37984,4498.6968
6407.29152,4224.97152
6110.496,4102.7616
5354.78976,4137.67872
4914.42876,4242.43008
4726.90512,4818.56256
4780.21608,5052.38256
4940.14896,7059.49344
5161.03092,6748.0452
5363.8308,6090.54336
6001.38,5555.5632
6395.7564,5589.8568
6344.316,5311.92276
6395.7564,5138.89596
5864.2056,5024.0124
6121.4076,4972.572
5401.242,5208.10668
5915.646,5744.48976
5795.6184,7370.94168
5967.0864,7388.24436
6481.4904,7319.03364
7270.2432,6609.62376
7459.01388,5882.9112
7561.7388,5173.50132
7441.7112,4619.81556
7424.5644,4342.97268
6407.29152,4152.6432
5621.65632,4221.85392
5513.31972,4204.55124
5313.32568,4723.63164
4957.91928,5294.62008
5161.03092,7561.27116
4967.27208,7474.75776
5349.8016,6384.68892
6704.3988,6280.87284
6898.31352,6090.54336
6515.784,5586.7392
6584.3712,5277.3174
6618.6648,5237.568
5967.0864,5359.77792
5778.4716,5035.07988
5572.71,4896.65844
5415.73884,7976.53548
5363.8308,7474.75776
5640.67368,7613.1792
7255.12284,7543.96848
7900.7778,6826.29696
7904.6748,5447.07072
7767.5004,5307.40224
7353.639,5097.89952
6075.57888,4914.42876
5534.36352,4685.44104
5372.4042,4597.36884
4993.45992,5115.35808
4655.82384,5450.3442
4861.58544,6903.76932
5090.57316,7306.0956
5864.2056,6677.43156
6738.6924,6618.6648
7013.0412,6172.848
6990.28272,5522.049
5984.2332,5471.07624
6138.5544,5675.5908
5847.0588,5401.242
5554.16028,5744.48976
5844.87648,5952.12192
7730.8686,7493.1516
7306.0956,7900.7778
7458.858,7509.98664
7476.0048,7596.0324
6601.518,7493.1516
6361.4628,6145.41312
6005.74464,5002.50096
5495.70528,5196.2598
4914.42876,4826.35656
4566.97224,4738.28436
4407.03936,4914.42876
4403.61,5080.44096
4783.64544,5377.23648
5881.3524,6337.45728
6550.0776,6601.518
6515.784,6473.54052
6515.784,6430.05
5795.6184,6094.28448
6052.8204,5929.83108
4955.4252,5657.97636
4732.5168,5250.19428
4595.3424,4944.35772
4671.7236,5267.1852
4975.6896,5281.2144
6529.50144,6881.3226
6634.2528,7184.5092
6739.00416,7133.0688
6194.35944,6564.41856
5621.65632,6389.83296
5324.8608,5231.48868
4591.60128,5090.57316
4417.01568,4843.971
4446.78876,4744.67544
4498.6968,4602.51288
4758.237,4638.05352
4879.35576,5196.2598
5467.64688,6165.054
6644.22912,7679.89584
6315.4782,6807.2796
5969.4246,6201.6858
5173.50132,5844.87648
5173.50132,5812.7652
4689.02628,5967.0864
4748.72832,5658.444
4172.59584,5469.8292
4399.55712,5212.6272
4207.51296,5435.5356
4853.47968,5795.6184
5761.3248,7424.5644
7245.3024,7373.124
6955.67736,7253.0964
6488.505,7235.9496
5329.22544,5829.912
4792.84236,5658.444
4259.88864,5173.50132
5796.24192,4914.42876
3910.40568,4731.26976
3787.1046,4879.35576
3751.87572,5045.52384
3928.02012,5178.64536
5150.2752,6147.43956
6529.50144,7644.66696
6931.04832,8701.53336
5866.07616,6217.89732
5150.2752,5918.45184
5255.02656,6389.83296
5272.48512,6250.16448
5080.44096,5935.9104
4643.97696,5467.64688
4836.02112,5709.8844
4888.3968,5692.58172
5621.65632,6298.17552
7297.67808,7647.78456
7287.39,7993.83816
6550.0776,7647.78456
6275.7288,7319.03364
6215.24736,6626.92644
5883.22296,4740.93432
5548.5486,5190.804
5390.01864,4896.65844
5020.1154,4715.37
4584.74256,4663.9296
4262.69448,4740.93432
4280.30892,5104.2906
4923.31392,5225.40936
7000.88256,6142.4514
6721.5456,6194.35944
5138.89596,6488.505
5881.3524,6315.4782
5538.4164,6298.17552
4989.7188,6004.02996
4955.4252,5623.371
4844.7504,4451.9328
4758.237,5377.23648
4896.65844,5097.89952
5121.59328,5848.6176
7215.21756,7489.72224
7526.6658,7716.68352
7180.6122,7457.45508
6567.2244,7613.1792
5675.27904,6090.54336
6592.32108,5554.16028
4498.6968,5086.98792
4224.97152,5173.50132
4102.7616,5017.7772
4137.67872,4913.96112
4242.43008,5086.98792
4818.56256,5225.40936
5052.38256,5311.92276
7059.49344,7838.11404
6748.0452,7301.73096
6090.54336,6298.17552
5555.5632,6073.24068
5589.8568,5813.70048
5311.92276,5953.36896
5138.89596,5415.73884
5024.0124,5394.69504
4972.572,5062.9824
5208.10668,5069.68524
5744.48976,5831.15904
7370.94168,7353.639
7388.24436,7630.48188
7319.03364,7699.6926
6609.62376,7270.2432
5882.9112,6407.29152
5173.50132,5516.90496
4619.81556,6669.16992
4342.97268,4755.8988
4152.6432,4597.36884
4221.85392,4562.13996
4204.55124,4808.74212
4723.63164,6040.66176
5294.62008,5812.7652
7561.27116,6824.4264
7474.75776,7284.42828
6384.68892,6730.74252
6280.87284,6250.16448
6090.54336,6075.57888
5586.7392,5536.8576
5277.3174,5298.3612
5237.568,5298.3612
5359.77792,5185.19232
5035.07988,5080.44096
4896.65844,5237.568
7976.53548,7441.7112
7474.75776,7235.9496
7613.1792,6944.454
7543.96848,6687.252
6826.29696,5864.2056
5447.07072,5202.65088
5307.40224,4748.72832
5097.89952,4713.8112
4914.42876,4556.68416
4685.44104,3978.0576
4597.36884,4235.2596
5115.35808,4732.5168
5450.3442,6111.11952
6903.76932,6313.14
7306.0956,6782.65056
6677.43156,6055.938
6618.6648,3910.40568
6172.848,6110.496
5522.049,3945.63456
5471.07624,5062.9824
5675.5908,4574.14272
5401.242,3941.89344
5744.48976,5006.8656
5952.12192,4706.32896
7493.1516,4410.78048
7900.7778,4910.37588
7509.98664,6592.47696
7596.0324,6893.0136
7493.1516,6644.22912
6145.41312,6280.87284
5002.50096,5450.3442
5196.2598,4048.82712
4826.35656,3840.8832
4738.28436,3892.3236
4914.42876,3960.9108
5080.44096,4149.5256
5377.23648,4446.78876
6337.45728,5450.3442
6601.518,5813.70048
6473.54052,5779.09512
6430.05,5744.48976
6094.28448,5484.94956
5929.83108,5115.35808
5657.97636,4853.47968
5250.19428,4696.35264
4944.35772,4256.45928
5267.1852,4567.90752
5281.2144,4923.31392
6881.3226,6280.87284
7184.5092,6275.7288
7133.0688,6055.938
6564.41856,5554.16028
6389.83296,4886.838
5231.48868,4048.82712
5090.57316,3738.0024
4843.971,3515.094
4744.67544,3377.9196
4602.51288,3377.9196
4638.05352,3515.094
5196.2598,4183.8192
6165.054,4818.2508
7679.89584,6755.8392
6807.2796,6670.1052
6201.6858,5915.646
5844.87648,5315.508
5812.7652,5075.4528
5967.0864,4766.8104
5658.444,4458.168
5469.8292,4169.94588
5212.6272,4291.06464
5435.5356,4325.67
5795.6184,4862.05308
7424.5644,6869.16396
7373.124,7128.70416
7253.0964,6748.0452
7235.9496,6228.9648
5829.912,6575.0184
5658.444,4187.24856
5173.50132,3927.70836
4914.42876,3858.03
4731.26976,3669.4152
4879.35576,3686.562
5045.52384,3446.5068
5178.64536,3583.6812
6147.43956,4338.1404
7644.66696,5761.3248
8701.53336,7184.5092
6217.89732,5984.2332
5918.45184,5366.9484
6389.83296,5092.5996
6250.16448,4715.37
5935.9104,4792.84236
5467.64688,4308.36732
5709.8844,4441.0212
5692.58172,4269.5532
6298.17552,5144.04
7647.78456,6550.0776
7993.83816,6772.986
7647.78456,6567.2244
7319.03364,6069.9672
6626.92644,4869.6912
4740.93432,4273.76196
5190.804,3996.91908
4896.65844,3754.68156
4715.37,3668.16816
4663.9296,5311.92276
4740.93432,3927.70836
5104.2906,5898.4992
5225.40936,4732.5168
6142.4514,7578.8856
6194.35944,7013.0412
6488.505,5949.9396
6315.4782,5658.444
6298.17552,5315.508
6004.02996,5294.62008
5623.371,5045.52384
4451.9328,4626.5184
5377.23648,4567.90752
5097.89952,4723.63164
5848.6176,5150.2752
7489.72224,6938.37468
7716.68352,7007.5854
7457.45508,6755.8392
7613.1792,6436.59696
6090.54336,6267.62304
5554.16028,6756.46272
5086.98792,4826.35656
5173.50132,4104.16452
5017.7772,3716.64684
4913.96112,3579.0048
5086.98792,3668.16816
5225.40936,3893.103
5311.92276,4481.39412
7838.11404,5813.70048
7301.73096,6841.5732
6298.17552,6021.33264
6073.24068,5521.2696
5813.70048,5589.8568
5953.36896,5467.64688
5415.73884,5115.35808
5394.69504,4155.13728
5062.9824,4671.7236
5069.68524,4731.26976
5831.15904,5377.23648
7353.639,7076.79612
7630.48188,7007.5854
7699.6926,6921.072
7270.2432,6285.0816
6407.29152,5900.99328
5516.90496,4262.69448
6669.16992,3945.63456
4755.8988,3891.70008
4597.36884,3713.99688
4562.13996,3731.7672
4808.74212,3892.79124
6040.66176,4068.93564
5812.7652,4643.97696
6824.4264,5813.70048
7284.42828,7115.922
6730.74252,6189.9948
6250.16448,5657.97636
6075.57888,5138.89596
5536.8576,4965.86916
5298.3612,4783.9572
5298.3612,4663.9296
5185.19232,4080.9384
5080.44096,4355.2872
5237.568,5024.0124
7441.7112,5761.3248
7235.9496,6447.1968
6944.454,6207.1416
6687.252,5658.444
5864.2056,4166.6724
5202.65088,5744.48976
4748.72832,5415.73884
4713.8112,5949.9396
4556.68416,5658.444
3978.0576,5315.508
4235.2596,5294.62008
4732.5168,5045.52384
6111.11952,4626.5184
6313.14,4567.90752
6782.65056,4723.63164
6055.938,5150.2752
3910.40568,6938.37468
